{
  "resourceType" : "Bundle",
  "id" : "example-opa-full-encounter-submission-bundle-1",
  "meta" : {
    "profile" : ["http://oash.org/fhir/us/opa/StructureDefinition/encounter-submission-full-report"]
  },
  "identifier" : {
    "system" : "http://example.org/fhir/Patient/example-opa-patient",
    "value" : "dd3fa897-5b5a-43ee-9617-bf5fe46b9e94"
  },
  "type" : "collection",
  "timestamp" : "2023-08-25T10:06:42.482-04:00",
  "entry" : [{
    "fullUrl" : "http://example.org/fhir/Patient/example-opa-patient",
    "resource" : {
      "resourceType" : "Patient",
      "id" : "example-opa-patient",
      "meta" : {
        "versionId" : "10",
        "lastUpdated" : "2023-08-09T17:01:13.300Z",
        "profile" : ["http://hl7.org/fhir/us/core/StructureDefinition/us-core-patient",
        "http://oash.org/fhir/us/opa/StructureDefinition/opa-patient"]
      },
      "text" : {
        "status" : "extensions",
        "div" : "<div xmlns=\"http://www.w3.org/1999/xhtml\"><p><b>Generated Narrative: Patient</b><a name=\"example-opa-patient\"> </a></p><div style=\"display: inline-block; background-color: #d9e0e7; padding: 6px; margin: 4px; border: 1px solid #8da1b4; border-radius: 5px; line-height: 60%\"><p style=\"margin-bottom: 0px\">Resource Patient &quot;example-opa-patient&quot; Version &quot;10&quot; Updated &quot;2023-08-09 17:01:13+0000&quot; </p><p style=\"margin-bottom: 0px\">Profiles: <a href=\"http://hl7.org/fhir/us/core/STU6.1/StructureDefinition-us-core-patient.html\">US Core Patient Profile</a>, <a href=\"StructureDefinition-opa-patient.html\">OPA Patient</a></p></div><blockquote><p><b>US Core Race Extension</b></p><blockquote><p><b>url</b></p><code>ombCategory</code></blockquote><p><b>value</b>: White (Details: urn:oid:2.16.840.1.113883.6.238 code 2106-3 = '2106-3', stated as 'White')</p><blockquote><p><b>url</b></p><code>ombCategory</code></blockquote><p><b>value</b>: American Indian or Alaska Native (Details: urn:oid:2.16.840.1.113883.6.238 code 1002-5 = '1002-5', stated as 'American Indian or Alaska Native')</p><blockquote><p><b>url</b></p><code>ombCategory</code></blockquote><p><b>value</b>: Asian (Details: urn:oid:2.16.840.1.113883.6.238 code 2028-9 = '2028-9', stated as 'Asian')</p><blockquote><p><b>url</b></p><code>text</code></blockquote><p><b>value</b>: Mixed</p></blockquote><blockquote><p><b>US Core Ethnicity Extension</b></p><blockquote><p><b>url</b></p><code>ombCategory</code></blockquote><p><b>value</b>: Hispanic or Latino (Details: urn:oid:2.16.840.1.113883.6.238 code 2135-2 = '2135-2', stated as 'Hispanic or Latino')</p><blockquote><p><b>url</b></p><code>text</code></blockquote><p><b>value</b>: Hispanic or Latino</p></blockquote><p><b>US Core Birth Sex Extension</b>: F</p><p><b>US Core Gender Identity Extension</b>: asked but unknown <span style=\"background: LightGoldenRodYellow; margin: 4px; border: 1px solid khaki\"> (<a href=\"http://terminology.hl7.org/5.0.0/CodeSystem-v3-NullFlavor.html\">NullFlavor</a>#ASKU)</span></p><p><b>Client Asserted Sex</b>: female</p><p><b>English Proficiency Extension</b>: Not proficient in English (finding) <span style=\"background: LightGoldenRodYellow; margin: 4px; border: 1px solid khaki\"> (<a href=\"https://browser.ihtsdotools.org/\">SNOMED CT</a>#455961000124100)</span></p><p><b>identifier</b>: Medical Record Number:\u00a0M00002232\u00a0(use:\u00a0USUAL)</p><p><b>active</b>: true</p><p><b>name</b>: Alisha Woodrow </p><p><b>telecom</b>: ph: 555-555-5555(HOME), <a href=\"mailto:alisha.woodrow@example.com\">alisha.woodrow@example.com</a></p><p><b>gender</b>: female</p><p><b>birthDate</b>: 1990-07-22</p><p><b>address</b>: 555 Paul Rigal Blvd Dublin OH 43017 US </p></div>"
      },
      "extension" : [{
        "url" : "http://hl7.org/fhir/us/core/StructureDefinition/us-core-race",
        "extension" : [{
          "url" : "ombCategory",
          "valueCoding" : {
            "system" : "urn:oid:2.16.840.1.113883.6.238",
            "code" : "2106-3",
            "display" : "White"
          }
        },
        {
          "url" : "ombCategory",
          "valueCoding" : {
            "system" : "urn:oid:2.16.840.1.113883.6.238",
            "code" : "1002-5",
            "display" : "American Indian or Alaska Native"
          }
        },
        {
          "url" : "ombCategory",
          "valueCoding" : {
            "system" : "urn:oid:2.16.840.1.113883.6.238",
            "code" : "2028-9",
            "display" : "Asian"
          }
        },
        {
          "url" : "text",
          "valueString" : "Mixed"
        }]
      },
      {
        "url" : "http://hl7.org/fhir/us/core/StructureDefinition/us-core-ethnicity",
        "extension" : [{
          "url" : "ombCategory",
          "valueCoding" : {
            "system" : "urn:oid:2.16.840.1.113883.6.238",
            "code" : "2135-2",
            "display" : "Hispanic or Latino"
          }
        },
        {
          "url" : "text",
          "valueString" : "Hispanic or Latino"
        }]
      },
      {
        "url" : "http://hl7.org/fhir/us/core/StructureDefinition/us-core-birthsex",
        "valueCode" : "F"
      },
      {
        "url" : "http://hl7.org/fhir/us/core/StructureDefinition/us-core-genderIdentity",
        "valueCodeableConcept" : {
          "coding" : [{
            "system" : "http://terminology.hl7.org/CodeSystem/v3-NullFlavor",
            "code" : "ASKU",
            "display" : "asked but unknown"
          }],
          "text" : "asked but unknown"
        }
      },
      {
        "url" : "http://oash.org/fhir/us/opa/StructureDefinition/client-asserted-sex",
        "valueCode" : "female"
      },
      {
        "url" : "http://oash.org/fhir/us/opa/StructureDefinition/english-proficiency",
        "valueCodeableConcept" : {
          "coding" : [{
            "system" : "http://snomed.info/sct",
            "code" : "455961000124100",
            "display" : "Not proficient in English (finding)"
          }]
        }
      }],
      "identifier" : [{
        "use" : "usual",
        "type" : {
          "coding" : [{
            "system" : "http://terminology.hl7.org/CodeSystem/v2-0203",
            "code" : "MR",
            "display" : "Medical Record Number"
          }],
          "text" : "Medical Record Number"
        },
        "system" : "http://hospital.smarthealthit.org",
        "value" : "M00002232"
      }],
      "active" : true,
      "name" : [{
        "family" : "Woodrow",
        "given" : ["Alisha"],
        "period" : {
          "start" : "1990-07-22"
        }
      }],
      "telecom" : [{
        "system" : "phone",
        "value" : "555-555-5555",
        "use" : "home"
      },
      {
        "system" : "email",
        "value" : "alisha.woodrow@example.com"
      }],
      "gender" : "female",
      "birthDate" : "1990-07-22",
      "address" : [{
        "line" : ["555 Paul Rigal Blvd"],
        "city" : "Dublin",
        "state" : "OH",
        "postalCode" : "43017",
        "country" : "US",
        "period" : {
          "start" : "2020-07-22"
        }
      }]
    }
  },
  {
    "fullUrl" : "http://example.org/fhir/Encounter/example-opa-encounter",
    "resource" : {
      "resourceType" : "Encounter",
      "id" : "example-opa-encounter",
      "meta" : {
        "versionId" : "14",
        "lastUpdated" : "2023-08-24T15:21:44.206Z",
        "profile" : ["http://oash.org/fhir/us/opa/StructureDefinition/opa-encounter"]
      },
      "text" : {
        "status" : "extensions",
        "div" : "<div xmlns=\"http://www.w3.org/1999/xhtml\"><p><b>Generated Narrative: Encounter</b><a name=\"example-opa-encounter\"> </a></p><div style=\"display: inline-block; background-color: #d9e0e7; padding: 6px; margin: 4px; border: 1px solid #8da1b4; border-radius: 5px; line-height: 60%\"><p style=\"margin-bottom: 0px\">Resource Encounter &quot;example-opa-encounter&quot; Version &quot;14&quot; Updated &quot;2023-08-24 15:21:44+0000&quot; </p><p style=\"margin-bottom: 0px\">Profile: <a href=\"StructureDefinition-opa-encounter.html\">OPA Encounter</a></p></div><p><b>OPA Insurance Coverage Type</b>: PRIVATE HEALTH INSURANCE <span style=\"background: LightGoldenRodYellow; margin: 4px; border: 1px solid khaki\"> (<a href=\"http://terminology.hl7.org/5.0.0/CodeSystem-SOPT.html\">Source of Payment Typology</a>#5)</span></p><p><b>OPA Payer for Visit</b>: Medicare HMO <span style=\"background: LightGoldenRodYellow; margin: 4px; border: 1px solid khaki\"> (<a href=\"http://terminology.hl7.org/5.0.0/CodeSystem-SOPT.html\">Source of Payment Typology</a>#111)</span></p><p><b>status</b>: finished</p><p><b>class</b>: ambulatory (Details: http://terminology.hl7.org/CodeSystem/v3-ActCode code AMB = 'ambulatory', stated as 'ambulatory')</p><p><b>type</b>: Office Visit <span style=\"background: LightGoldenRodYellow; margin: 4px; border: 1px solid khaki\"> (<a href=\"http://terminology.hl7.org/5.0.0/CodeSystem-CPT.html\">Current Procedural Terminology (CPT®)</a>#99202)</span></p><p><b>subject</b>: <a href=\"#Patient_example-opa-patient\">See above (Patient/example-opa-patient)</a></p><p><b>period</b>: 2023-04-05 17:00:14-0500 --&gt; 2023-04-13 18:00:14-0500</p></div>"
      },
      "extension" : [{
        "url" : "http://oash.org/fhir/us/opa/StructureDefinition/insurance-type",
        "valueCodeableConcept" : {
          "coding" : [{
            "system" : "https://nahdo.org/sopt",
            "code" : "5",
            "display" : "PRIVATE HEALTH INSURANCE"
          }],
          "text" : "PRIVATE HEALTH INSURANCE"
        }
      },
      {
        "url" : "http://oash.org/fhir/us/opa/StructureDefinition/payer-for-visit",
        "valueCodeableConcept" : {
          "coding" : [{
            "system" : "https://nahdo.org/sopt",
            "code" : "111",
            "display" : "Medicare HMO"
          }],
          "text" : "Medicare HMO"
        }
      }],
      "status" : "finished",
      "class" : {
        "system" : "http://terminology.hl7.org/CodeSystem/v3-ActCode",
        "code" : "AMB",
        "display" : "ambulatory"
      },
      "type" : [{
        "coding" : [{
          "system" : "http://www.ama-assn.org/go/cpt",
          "code" : "99202"
        }],
        "text" : "Office Visit"
      }],
      "subject" : {
        "reference" : "Patient/example-opa-patient"
      },
      "period" : {
        "start" : "2023-04-05T17:00:14-05:00",
        "end" : "2023-04-13T18:00:14-05:00"
      }
    }
  },
  {
    "fullUrl" : "http://example.org/fhir/Organization/example-opa-fp-provider-organization",
    "resource" : {
      "resourceType" : "Organization",
      "id" : "example-opa-fp-provider-organization",
      "meta" : {
        "profile" : ["http://oash.org/fhir/us/opa/StructureDefinition/fp-provider-organization"]
      },
      "text" : {
        "status" : "generated",
        "div" : "<div xmlns=\"http://www.w3.org/1999/xhtml\"><p><b>Generated Narrative: Organization</b><a name=\"example-opa-fp-provider-organization\"> </a></p><div style=\"display: inline-block; background-color: #d9e0e7; padding: 6px; margin: 4px; border: 1px solid #8da1b4; border-radius: 5px; line-height: 60%\"><p style=\"margin-bottom: 0px\">Resource Organization &quot;example-opa-fp-provider-organization&quot; </p><p style=\"margin-bottom: 0px\">Profile: <a href=\"StructureDefinition-fp-provider-organization.html\">OPA Family Planning Provider Organization</a></p></div><p><b>identifier</b>: id:\u00a01407071236</p><p><b>active</b>: true</p><p><b>type</b>: Healthcare Provider <span style=\"background: LightGoldenRodYellow; margin: 4px; border: 1px solid khaki\"> (<a href=\"http://terminology.hl7.org/5.0.0/CodeSystem-organization-type.html\">Organization type</a>#prov)</span></p><p><b>name</b>: Acme Clinic</p><p><b>telecom</b>: ph: (+1) 734-677-7777, <a href=\"mailto:customer-service@acme-clinic.org\">customer-service@acme-clinic.org</a></p><p><b>address</b>: 3300 Washtenaw Avenue, Suite 227 Amherst MA 01002 USA </p></div>"
      },
      "identifier" : [{
        "system" : "http://hl7.org/fhir/sid/us-npi",
        "value" : "1407071236"
      }],
      "active" : true,
      "type" : [{
        "coding" : [{
          "system" : "http://terminology.hl7.org/CodeSystem/organization-type",
          "code" : "prov",
          "display" : "Healthcare Provider"
        }]
      }],
      "name" : "Acme Clinic",
      "telecom" : [{
        "system" : "phone",
        "value" : "(+1) 734-677-7777"
      },
      {
        "system" : "email",
        "value" : "customer-service@acme-clinic.org"
      }],
      "address" : [{
        "line" : ["3300 Washtenaw Avenue, Suite 227"],
        "city" : "Amherst",
        "state" : "MA",
        "postalCode" : "01002",
        "country" : "USA"
      }]
    }
  },
  {
    "fullUrl" : "http://example.org/fhir/PractitionerRole/example-opa-practitioner-role",
    "resource" : {
      "resourceType" : "PractitionerRole",
      "id" : "example-opa-practitioner-role",
      "meta" : {
        "profile" : ["http://oash.org/fhir/us/opa/StructureDefinition/opa-practitioner-role"]
      },
      "text" : {
        "status" : "generated",
        "div" : "<div xmlns=\"http://www.w3.org/1999/xhtml\"><p><b>Generated Narrative: PractitionerRole</b><a name=\"example-opa-practitioner-role\"> </a></p><div style=\"display: inline-block; background-color: #d9e0e7; padding: 6px; margin: 4px; border: 1px solid #8da1b4; border-radius: 5px; line-height: 60%\"><p style=\"margin-bottom: 0px\">Resource PractitionerRole &quot;example-opa-practitioner-role&quot; </p><p style=\"margin-bottom: 0px\">Profile: <a href=\"StructureDefinition-opa-practitioner-role.html\">OPA Practitioner Role profile</a></p></div><p><b>identifier</b>: id:\u00a023</p><p><b>active</b>: true</p><p><b>period</b>: 2012-01-01 --&gt; (ongoing)</p><p><b>practitioner</b>: <a href=\"Practitioner-example-opa-practitioner.html\">Practitioner/example-opa-practitioner: Dr Adam Careful</a> &quot; CAREFUL&quot;</p><p><b>code</b>: 223366009 <span style=\"background: LightGoldenRodYellow; margin: 4px; border: 1px solid khaki\"> (<a href=\"https://browser.ihtsdotools.org/\">SNOMED CT</a>#223366009)</span></p><p><b>specialty</b>: Healthcare professional (occupation) <span style=\"background: LightGoldenRodYellow; margin: 4px; border: 1px solid khaki\"> (<a href=\"https://browser.ihtsdotools.org/\">SNOMED CT</a>#223366009)</span></p><p><b>telecom</b>: ph: 555-555-5555</p></div>"
      },
      "identifier" : [{
        "system" : "http://www.acme.org/practitioners",
        "value" : "23"
      }],
      "active" : true,
      "period" : {
        "start" : "2012-01-01"
      },
      "practitioner" : {
        "reference" : "Practitioner/example-opa-practitioner",
        "display" : "Dr Adam Careful"
      },
      "code" : [{
        "coding" : [{
          "system" : "http://snomed.info/sct",
          "code" : "223366009"
        }]
      }],
      "specialty" : [{
        "coding" : [{
          "system" : "http://snomed.info/sct",
          "code" : "223366009",
          "display" : "Healthcare professional (occupation)"
        }]
      }],
      "telecom" : [{
        "system" : "phone",
        "value" : "555-555-5555"
      }]
    }
  },
  {
    "fullUrl" : "http://example.org/fhir/Observation/example-opa-blood-pressure",
    "resource" : {
      "resourceType" : "Observation",
      "id" : "example-opa-blood-pressure",
      "meta" : {
        "versionId" : "1",
        "lastUpdated" : "2023-08-04T15:27:07.103Z",
        "profile" : ["http://hl7.org/fhir/us/core/StructureDefinition/us-core-blood-pressure"]
      },
      "text" : {
        "status" : "generated",
        "div" : "<div xmlns=\"http://www.w3.org/1999/xhtml\"><p><b>Generated Narrative: Observation</b><a name=\"example-opa-blood-pressure\"> </a></p><div style=\"display: inline-block; background-color: #d9e0e7; padding: 6px; margin: 4px; border: 1px solid #8da1b4; border-radius: 5px; line-height: 60%\"><p style=\"margin-bottom: 0px\">Resource Observation &quot;example-opa-blood-pressure&quot; Version &quot;1&quot; Updated &quot;2023-08-04 15:27:07+0000&quot; </p><p style=\"margin-bottom: 0px\">Profile: <a href=\"http://hl7.org/fhir/us/core/STU6.1/StructureDefinition-us-core-blood-pressure.html\">US Core Blood Pressure Profile</a></p></div><p><b>status</b>: final</p><p><b>category</b>: Vital Signs <span style=\"background: LightGoldenRodYellow; margin: 4px; border: 1px solid khaki\"> (<a href=\"http://terminology.hl7.org/5.0.0/CodeSystem-observation-category.html\">Observation Category Codes</a>#vital-signs)</span></p><p><b>code</b>: Blood pressure systolic and diastolic <span style=\"background: LightGoldenRodYellow; margin: 4px; border: 1px solid khaki\"> (<a href=\"https://loinc.org/\">LOINC</a>#85354-9 &quot;Blood pressure panel with all children optional&quot;)</span></p><p><b>subject</b>: <a href=\"#Patient_example-opa-patient\">See above (Patient/example-opa-patient)</a></p><p><b>effective</b>: 2023-04-13 18:00:14-0500</p><p><b>performer</b>: <a href=\"#PractitionerRole_example-opa-practitioner-role\">See above (PractitionerRole/example-opa-practitioner-role)</a></p><blockquote><p><b>component</b></p><p><b>code</b>: Systolic blood pressure <span style=\"background: LightGoldenRodYellow; margin: 4px; border: 1px solid khaki\"> (<a href=\"https://loinc.org/\">LOINC</a>#8480-6)</span></p><p><b>value</b>: 109 mmHg<span style=\"background: LightGoldenRodYellow\"> (Details: UCUM code mm[Hg] = 'mm[Hg]')</span></p></blockquote><blockquote><p><b>component</b></p><p><b>code</b>: Diastolic blood pressure <span style=\"background: LightGoldenRodYellow; margin: 4px; border: 1px solid khaki\"> (<a href=\"https://loinc.org/\">LOINC</a>#8462-4)</span></p><p><b>value</b>: 44 mmHg<span style=\"background: LightGoldenRodYellow\"> (Details: UCUM code mm[Hg] = 'mm[Hg]')</span></p></blockquote></div>"
      },
      "status" : "final",
      "category" : [{
        "coding" : [{
          "system" : "http://terminology.hl7.org/CodeSystem/observation-category",
          "code" : "vital-signs",
          "display" : "Vital Signs"
        }],
        "text" : "Vital Signs"
      }],
      "code" : {
        "coding" : [{
          "system" : "http://loinc.org",
          "code" : "85354-9",
          "display" : "Blood pressure panel with all children optional"
        }],
        "text" : "Blood pressure systolic and diastolic"
      },
      "subject" : {
        "reference" : "Patient/example-opa-patient"
      },
      "effectiveDateTime" : "2023-04-13T18:00:14-05:00",
      "performer" : [{
        "reference" : "PractitionerRole/example-opa-practitioner-role"
      }],
      "component" : [{
        "code" : {
          "coding" : [{
            "system" : "http://loinc.org",
            "code" : "8480-6",
            "display" : "Systolic blood pressure"
          }],
          "text" : "Systolic blood pressure"
        },
        "valueQuantity" : {
          "value" : 109,
          "unit" : "mmHg",
          "system" : "http://unitsofmeasure.org",
          "code" : "mm[Hg]"
        }
      },
      {
        "code" : {
          "coding" : [{
            "system" : "http://loinc.org",
            "code" : "8462-4",
            "display" : "Diastolic blood pressure"
          }],
          "text" : "Diastolic blood pressure"
        },
        "valueQuantity" : {
          "value" : 44,
          "unit" : "mmHg",
          "system" : "http://unitsofmeasure.org",
          "code" : "mm[Hg]"
        }
      }]
    }
  },
  {
    "fullUrl" : "http://example.org/fhir/Observation/example-opa-body-height",
    "resource" : {
      "resourceType" : "Observation",
      "id" : "example-opa-body-height",
      "meta" : {
        "versionId" : "1",
        "lastUpdated" : "2023-08-04T15:32:18.865Z",
        "profile" : ["http://hl7.org/fhir/us/core/StructureDefinition/us-core-body-height"]
      },
      "text" : {
        "status" : "generated",
        "div" : "<div xmlns=\"http://www.w3.org/1999/xhtml\"><p><b>Generated Narrative: Observation</b><a name=\"example-opa-body-height\"> </a></p><div style=\"display: inline-block; background-color: #d9e0e7; padding: 6px; margin: 4px; border: 1px solid #8da1b4; border-radius: 5px; line-height: 60%\"><p style=\"margin-bottom: 0px\">Resource Observation &quot;example-opa-body-height&quot; Version &quot;1&quot; Updated &quot;2023-08-04 15:32:18+0000&quot; </p><p style=\"margin-bottom: 0px\">Profile: <a href=\"http://hl7.org/fhir/us/core/STU6.1/StructureDefinition-us-core-body-height.html\">US Core Body Height Profile</a></p></div><p><b>status</b>: final</p><p><b>category</b>: Vital Signs <span style=\"background: LightGoldenRodYellow; margin: 4px; border: 1px solid khaki\"> (<a href=\"http://terminology.hl7.org/5.0.0/CodeSystem-observation-category.html\">Observation Category Codes</a>#vital-signs)</span></p><p><b>code</b>: height <span style=\"background: LightGoldenRodYellow; margin: 4px; border: 1px solid khaki\"> (<a href=\"https://loinc.org/\">LOINC</a>#8302-2 &quot;Body height&quot;)</span></p><p><b>subject</b>: <a href=\"#Patient_example-opa-patient\">See above (Patient/example-opa-patient)</a></p><p><b>effective</b>: 2023-04-13 18:00:14-0500</p><p><b>performer</b>: <a href=\"#PractitionerRole_example-opa-practitioner-role\">See above (PractitionerRole/example-opa-practitioner-role)</a></p><p><b>value</b>: 111.506 cm<span style=\"background: LightGoldenRodYellow\"> (Details: UCUM code cm = 'cm')</span></p></div>"
      },
      "status" : "final",
      "category" : [{
        "coding" : [{
          "system" : "http://terminology.hl7.org/CodeSystem/observation-category",
          "code" : "vital-signs",
          "display" : "Vital Signs"
        }],
        "text" : "Vital Signs"
      }],
      "code" : {
        "coding" : [{
          "system" : "http://loinc.org",
          "code" : "8302-2",
          "display" : "Body height"
        }],
        "text" : "height"
      },
      "subject" : {
        "reference" : "Patient/example-opa-patient"
      },
      "effectiveDateTime" : "2023-04-13T18:00:14-05:00",
      "performer" : [{
        "reference" : "PractitionerRole/example-opa-practitioner-role"
      }],
      "valueQuantity" : {
        "value" : 111.506,
        "unit" : "cm",
        "system" : "http://unitsofmeasure.org",
        "code" : "cm"
      }
    }
  },
  {
    "fullUrl" : "http://example.org/fhir/Observation/example-opa-body-weight",
    "resource" : {
      "resourceType" : "Observation",
      "id" : "example-opa-body-weight",
      "meta" : {
        "versionId" : "1",
        "lastUpdated" : "2023-08-04T15:32:19.040Z",
        "profile" : ["http://hl7.org/fhir/us/core/StructureDefinition/us-core-body-weight"]
      },
      "text" : {
        "status" : "generated",
        "div" : "<div xmlns=\"http://www.w3.org/1999/xhtml\"><p><b>Generated Narrative: Observation</b><a name=\"example-opa-body-weight\"> </a></p><div style=\"display: inline-block; background-color: #d9e0e7; padding: 6px; margin: 4px; border: 1px solid #8da1b4; border-radius: 5px; line-height: 60%\"><p style=\"margin-bottom: 0px\">Resource Observation &quot;example-opa-body-weight&quot; Version &quot;1&quot; Updated &quot;2023-08-04 15:32:19+0000&quot; </p><p style=\"margin-bottom: 0px\">Profile: <a href=\"http://hl7.org/fhir/us/core/STU6.1/StructureDefinition-us-core-body-weight.html\">US Core Body Weight Profile</a></p></div><p><b>status</b>: final</p><p><b>category</b>: Vital Signs <span style=\"background: LightGoldenRodYellow; margin: 4px; border: 1px solid khaki\"> (<a href=\"http://terminology.hl7.org/5.0.0/CodeSystem-observation-category.html\">Observation Category Codes</a>#vital-signs)</span></p><p><b>code</b>: weight <span style=\"background: LightGoldenRodYellow; margin: 4px; border: 1px solid khaki\"> (<a href=\"https://loinc.org/\">LOINC</a>#29463-7 &quot;Body Weight&quot;)</span></p><p><b>subject</b>: <a href=\"#Patient_example-opa-patient\">See above (Patient/example-opa-patient)</a></p><p><b>effective</b>: 2023-04-13 18:00:14-0500</p><p><b>performer</b>: <a href=\"#PractitionerRole_example-opa-practitioner-role\">See above (PractitionerRole/example-opa-practitioner-role)</a></p><p><b>value</b>: 20.09414 kg<span style=\"background: LightGoldenRodYellow\"> (Details: UCUM code kg = 'kg')</span></p></div>"
      },
      "status" : "final",
      "category" : [{
        "coding" : [{
          "system" : "http://terminology.hl7.org/CodeSystem/observation-category",
          "code" : "vital-signs",
          "display" : "Vital Signs"
        }],
        "text" : "Vital Signs"
      }],
      "code" : {
        "coding" : [{
          "system" : "http://loinc.org",
          "code" : "29463-7",
          "display" : "Body Weight"
        }],
        "text" : "weight"
      },
      "subject" : {
        "reference" : "Patient/example-opa-patient"
      },
      "effectiveDateTime" : "2023-04-13T18:00:14-05:00",
      "performer" : [{
        "reference" : "PractitionerRole/example-opa-practitioner-role"
      }],
      "valueQuantity" : {
        "value" : 20.09414,
        "unit" : "kg",
        "system" : "http://unitsofmeasure.org",
        "code" : "kg"
      }
    }
  },
  {
    "fullUrl" : "http://example.org/fhir/Observation/example-opa-smoking-status",
    "resource" : {
      "resourceType" : "Observation",
      "id" : "example-opa-smoking-status",
      "meta" : {
        "profile" : ["http://hl7.org/fhir/us/core/StructureDefinition/us-core-smokingstatus"]
      },
      "text" : {
        "status" : "generated",
        "div" : "<div xmlns=\"http://www.w3.org/1999/xhtml\"><p><b>Generated Narrative: Observation</b><a name=\"example-opa-smoking-status\"> </a></p><div style=\"display: inline-block; background-color: #d9e0e7; padding: 6px; margin: 4px; border: 1px solid #8da1b4; border-radius: 5px; line-height: 60%\"><p style=\"margin-bottom: 0px\">Resource Observation &quot;example-opa-smoking-status&quot; </p><p style=\"margin-bottom: 0px\">Profile: <a href=\"http://hl7.org/fhir/us/core/STU6.1/StructureDefinition-us-core-smokingstatus.html\">US Core Smoking Status Observation Profile</a></p></div><p><b>status</b>: final</p><p><b>category</b>: Social History <span style=\"background: LightGoldenRodYellow; margin: 4px; border: 1px solid khaki\"> (<a href=\"http://terminology.hl7.org/5.0.0/CodeSystem-observation-category.html\">Observation Category Codes</a>#social-history)</span></p><p><b>code</b>: Tobacco smoking status <span style=\"background: LightGoldenRodYellow; margin: 4px; border: 1px solid khaki\"> (<a href=\"https://loinc.org/\">LOINC</a>#72166-2)</span></p><p><b>subject</b>: <a href=\"#Patient_example-opa-patient\">See above (Patient/example-opa-patient)</a></p><p><b>effective</b>: 2023-04-13 18:00:14-0500</p><p><b>performer</b>: <a href=\"#PractitionerRole_example-opa-practitioner-role\">See above (PractitionerRole/example-opa-practitioner-role)</a></p><p><b>value</b>: Current some day smoker <span style=\"background: LightGoldenRodYellow; margin: 4px; border: 1px solid khaki\"> (<a href=\"https://browser.ihtsdotools.org/\">SNOMED CT</a>#428041000124106)</span></p></div>"
      },
      "status" : "final",
      "category" : [{
        "coding" : [{
          "system" : "http://terminology.hl7.org/CodeSystem/observation-category",
          "code" : "social-history",
          "display" : "Social History"
        }],
        "text" : "Social History"
      }],
      "code" : {
        "coding" : [{
          "system" : "http://loinc.org",
          "code" : "72166-2",
          "display" : "Tobacco smoking status"
        }],
        "text" : "Tobacco smoking status"
      },
      "subject" : {
        "reference" : "Patient/example-opa-patient"
      },
      "effectiveDateTime" : "2023-04-13T18:00:14-05:00",
      "performer" : [{
        "reference" : "PractitionerRole/example-opa-practitioner-role"
      }],
      "valueCodeableConcept" : {
        "coding" : [{
          "system" : "http://snomed.info/sct",
          "code" : "428041000124106"
        }],
        "text" : "Current some day smoker"
      }
    }
  },
  {
    "fullUrl" : "http://example.org/fhir/Observation/example-opa-sexual-orientation",
    "resource" : {
      "resourceType" : "Observation",
      "id" : "example-opa-sexual-orientation",
      "meta" : {
        "profile" : ["http://hl7.org/fhir/us/core/StructureDefinition/us-core-observation-sexual-orientation"]
      },
      "text" : {
        "status" : "generated",
        "div" : "<div xmlns=\"http://www.w3.org/1999/xhtml\"><p><b>Generated Narrative: Observation</b><a name=\"example-opa-sexual-orientation\"> </a></p><div style=\"display: inline-block; background-color: #d9e0e7; padding: 6px; margin: 4px; border: 1px solid #8da1b4; border-radius: 5px; line-height: 60%\"><p style=\"margin-bottom: 0px\">Resource Observation &quot;example-opa-sexual-orientation&quot; </p><p style=\"margin-bottom: 0px\">Profile: <a href=\"http://hl7.org/fhir/us/core/STU6.1/StructureDefinition-us-core-observation-sexual-orientation.html\">US Core Observation Sexual Orientation Profile</a></p></div><p><b>status</b>: final</p><p><b>category</b>: Social History <span style=\"background: LightGoldenRodYellow; margin: 4px; border: 1px solid khaki\"> (<a href=\"http://terminology.hl7.org/5.0.0/CodeSystem-observation-category.html\">Observation Category Codes</a>#social-history)</span></p><p><b>code</b>: Sexual orientation <span style=\"background: LightGoldenRodYellow; margin: 4px; border: 1px solid khaki\"> (<a href=\"https://loinc.org/\">LOINC</a>#76690-7)</span></p><p><b>subject</b>: <a href=\"#Patient_example-opa-patient\">See above (Patient/example-opa-patient)</a></p><p><b>effective</b>: 2023-04-13 18:00:14-0500</p><p><b>performer</b>: <a href=\"#PractitionerRole_example-opa-practitioner-role\">See above (PractitionerRole/example-opa-practitioner-role)</a></p><p><b>value</b>: Bisexual <span style=\"background: LightGoldenRodYellow; margin: 4px; border: 1px solid khaki\"> (<a href=\"https://browser.ihtsdotools.org/\">SNOMED CT</a>#42035005)</span></p></div>"
      },
      "status" : "final",
      "category" : [{
        "coding" : [{
          "system" : "http://terminology.hl7.org/CodeSystem/observation-category",
          "code" : "social-history",
          "display" : "Social History"
        }]
      }],
      "code" : {
        "coding" : [{
          "system" : "http://loinc.org",
          "code" : "76690-7",
          "display" : "Sexual orientation"
        }],
        "text" : "Sexual orientation"
      },
      "subject" : {
        "reference" : "Patient/example-opa-patient"
      },
      "effectiveDateTime" : "2023-04-13T18:00:14-05:00",
      "performer" : [{
        "reference" : "PractitionerRole/example-opa-practitioner-role"
      }],
      "valueCodeableConcept" : {
        "coding" : [{
          "system" : "http://snomed.info/sct",
          "code" : "42035005",
          "display" : "Bisexual"
        }],
        "text" : "Bisexual"
      }
    }
  },
  {
    "fullUrl" : "http://example.org/fhir/Observation/example-opa-pregnancy-status",
    "resource" : {
      "resourceType" : "Observation",
      "id" : "example-opa-pregnancy-status",
      "meta" : {
        "extension" : [{
          "url" : "http://hl7.org/fhir/StructureDefinition/instance-name",
          "valueString" : "Pregnancy Status Observation Example"
        }],
        "profile" : ["http://hl7.org/fhir/us/core/StructureDefinition/us-core-observation-pregnancystatus"]
      },
      "text" : {
        "status" : "generated",
        "div" : "<div xmlns=\"http://www.w3.org/1999/xhtml\"><p><b>Generated Narrative: Observation</b><a name=\"example-opa-pregnancy-status\"> </a></p><div style=\"display: inline-block; background-color: #d9e0e7; padding: 6px; margin: 4px; border: 1px solid #8da1b4; border-radius: 5px; line-height: 60%\"><p style=\"margin-bottom: 0px\">Resource Observation &quot;example-opa-pregnancy-status&quot; </p><p style=\"margin-bottom: 0px\">Profile: <a href=\"http://hl7.org/fhir/us/core/STU6.1/StructureDefinition-us-core-observation-pregnancystatus.html\">US Core Observation Pregnancy Status Profile</a></p></div><p><b>status</b>: final</p><p><b>category</b>: Social History <span style=\"background: LightGoldenRodYellow; margin: 4px; border: 1px solid khaki\"> (<a href=\"http://terminology.hl7.org/5.0.0/CodeSystem-observation-category.html\">Observation Category Codes</a>#social-history)</span></p><p><b>code</b>: Pregnancy Status <span style=\"background: LightGoldenRodYellow; margin: 4px; border: 1px solid khaki\"> (<a href=\"https://loinc.org/\">LOINC</a>#82810-3 &quot;Pregnancy status&quot;)</span></p><p><b>subject</b>: <a href=\"#Patient_example-opa-patient\">See above (Patient/example-opa-patient)</a></p><p><b>effective</b>: 2023-04-13 18:00:14-0500</p><p><b>performer</b>: <a href=\"#PractitionerRole_example-opa-practitioner-role\">See above (PractitionerRole/example-opa-practitioner-role)</a></p><p><b>value</b>: Not pregnant <span style=\"background: LightGoldenRodYellow; margin: 4px; border: 1px solid khaki\"> (<a href=\"https://browser.ihtsdotools.org/\">SNOMED CT</a>#60001007 &quot;Not pregnant (finding)&quot;)</span></p></div>"
      },
      "status" : "final",
      "category" : [{
        "coding" : [{
          "system" : "http://terminology.hl7.org/CodeSystem/observation-category",
          "code" : "social-history",
          "display" : "Social History"
        }],
        "text" : "Social History"
      }],
      "code" : {
        "coding" : [{
          "system" : "http://loinc.org",
          "code" : "82810-3",
          "display" : "Pregnancy status"
        }],
        "text" : "Pregnancy Status"
      },
      "subject" : {
        "reference" : "Patient/example-opa-patient"
      },
      "effectiveDateTime" : "2023-04-13T18:00:14-05:00",
      "performer" : [{
        "reference" : "PractitionerRole/example-opa-practitioner-role"
      }],
      "valueCodeableConcept" : {
        "coding" : [{
          "system" : "http://snomed.info/sct",
          "code" : "60001007",
          "display" : "Not pregnant (finding)"
        }],
        "text" : "Not pregnant"
      }
    }
  },
  {
    "fullUrl" : "http://example.org/fhir/Observation/example-opa-pregnancy-intent",
    "resource" : {
      "resourceType" : "Observation",
      "id" : "example-opa-pregnancy-intent",
      "meta" : {
        "profile" : ["http://hl7.org/fhir/us/core/StructureDefinition/us-core-observation-pregnancyintent"]
      },
      "text" : {
        "status" : "generated",
        "div" : "<div xmlns=\"http://www.w3.org/1999/xhtml\"><p><b>Generated Narrative: Observation</b><a name=\"example-opa-pregnancy-intent\"> </a></p><div style=\"display: inline-block; background-color: #d9e0e7; padding: 6px; margin: 4px; border: 1px solid #8da1b4; border-radius: 5px; line-height: 60%\"><p style=\"margin-bottom: 0px\">Resource Observation &quot;example-opa-pregnancy-intent&quot; </p><p style=\"margin-bottom: 0px\">Profile: <a href=\"http://hl7.org/fhir/us/core/STU6.1/StructureDefinition-us-core-observation-pregnancyintent.html\">US Core Observation Pregnancy Intent Profile</a></p></div><p><b>status</b>: final</p><p><b>category</b>: Social History <span style=\"background: LightGoldenRodYellow; margin: 4px; border: 1px solid khaki\"> (<a href=\"http://terminology.hl7.org/5.0.0/CodeSystem-observation-category.html\">Observation Category Codes</a>#social-history)</span></p><p><b>code</b>: Pregnancy Intent <span style=\"background: LightGoldenRodYellow; margin: 4px; border: 1px solid khaki\"> (<a href=\"https://loinc.org/\">LOINC</a>#86645-9 &quot;Pregnancy intention in the next year - Reported&quot;)</span></p><p><b>subject</b>: <a href=\"#Patient_example-opa-patient\">See above (Patient/example-opa-patient)</a></p><p><b>effective</b>: 2023-04-13 18:00:14-0500</p><p><b>performer</b>: <a href=\"#PractitionerRole_example-opa-practitioner-role\">See above (PractitionerRole/example-opa-practitioner-role)</a></p><p><b>value</b>: Not sure of desire to become pregnant <span style=\"background: LightGoldenRodYellow; margin: 4px; border: 1px solid khaki\"> (<a href=\"https://browser.ihtsdotools.org/\">SNOMED CT</a>#454381000124105 &quot;Not sure of desire to become pregnant (finding)&quot;)</span></p></div>"
      },
      "status" : "final",
      "category" : [{
        "coding" : [{
          "system" : "http://terminology.hl7.org/CodeSystem/observation-category",
          "code" : "social-history",
          "display" : "Social History"
        }],
        "text" : "Social History"
      }],
      "code" : {
        "coding" : [{
          "system" : "http://loinc.org",
          "code" : "86645-9",
          "display" : "Pregnancy intention in the next year - Reported"
        }],
        "text" : "Pregnancy Intent"
      },
      "subject" : {
        "reference" : "Patient/example-opa-patient"
      },
      "effectiveDateTime" : "2023-04-13T18:00:14-05:00",
      "performer" : [{
        "reference" : "PractitionerRole/example-opa-practitioner-role"
      }],
      "valueCodeableConcept" : {
        "coding" : [{
          "system" : "http://snomed.info/sct",
          "code" : "454381000124105",
          "display" : "Not sure of desire to become pregnant (finding)"
        }],
        "text" : "Not sure of desire to become pregnant"
      }
    }
  },
  {
    "fullUrl" : "http://example.org/fhir/Observation/example-opa-contraceptive-method-intake",
    "resource" : {
      "resourceType" : "Observation",
      "id" : "example-opa-contraceptive-method-intake",
      "meta" : {
        "profile" : ["http://oash.org/fhir/us/opa/StructureDefinition/contraceptive-method-intake"]
      },
      "text" : {
        "status" : "generated",
        "div" : "<div xmlns=\"http://www.w3.org/1999/xhtml\"><p><b>Generated Narrative: Observation</b><a name=\"example-opa-contraceptive-method-intake\"> </a></p><div style=\"display: inline-block; background-color: #d9e0e7; padding: 6px; margin: 4px; border: 1px solid #8da1b4; border-radius: 5px; line-height: 60%\"><p style=\"margin-bottom: 0px\">Resource Observation &quot;example-opa-contraceptive-method-intake&quot; </p><p style=\"margin-bottom: 0px\">Profile: <a href=\"StructureDefinition-contraceptive-method-intake.html\">Contraceptive Method - Intake</a></p></div><p><b>status</b>: final</p><p><b>category</b>: Survey <span style=\"background: LightGoldenRodYellow; margin: 4px; border: 1px solid khaki\"> (<a href=\"http://terminology.hl7.org/5.0.0/CodeSystem-observation-category.html\">Observation Category Codes</a>#survey)</span></p><p><b>code</b>: Birth control method at intake Reported <span style=\"background: LightGoldenRodYellow; margin: 4px; border: 1px solid khaki\"> (<a href=\"https://loinc.org/\">LOINC</a>#86649-1)</span></p><p><b>subject</b>: <a href=\"#Patient_example-opa-patient\">See above (Patient/example-opa-patient)</a></p><p><b>effective</b>: 2023-04-13 18:00:14-0500</p><p><b>performer</b>: <a href=\"#PractitionerRole_example-opa-practitioner-role\">See above (PractitionerRole/example-opa-practitioner-role)</a></p><p><b>value</b>: Uses combined oral contraception (finding) <span style=\"background: LightGoldenRodYellow; margin: 4px; border: 1px solid khaki\"> (<a href=\"https://browser.ihtsdotools.org/\">SNOMED CT</a>#268458002)</span></p></div>"
      },
      "status" : "final",
      "category" : [{
        "coding" : [{
          "system" : "http://terminology.hl7.org/CodeSystem/observation-category",
          "code" : "survey",
          "display" : "Survey"
        }]
      }],
      "code" : {
        "coding" : [{
          "system" : "http://loinc.org",
          "code" : "86649-1",
          "display" : "Birth control method at intake Reported"
        }]
      },
      "subject" : {
        "reference" : "Patient/example-opa-patient"
      },
      "effectiveDateTime" : "2023-04-13T18:00:14-05:00",
      "performer" : [{
        "reference" : "PractitionerRole/example-opa-practitioner-role"
      }],
      "valueCodeableConcept" : {
        "coding" : [{
          "system" : "http://snomed.info/sct",
          "code" : "268458002",
          "display" : "Uses combined oral contraception (finding)"
        }]
      }
    }
  },
  {
    "fullUrl" : "http://example.org/fhir/Observation/example-opa-contraceptive-method-exit",
    "resource" : {
      "resourceType" : "Observation",
      "id" : "example-opa-contraceptive-method-exit",
      "meta" : {
        "profile" : ["http://oash.org/fhir/us/opa/StructureDefinition/contraceptive-method-exit"]
      },
      "text" : {
        "status" : "generated",
        "div" : "<div xmlns=\"http://www.w3.org/1999/xhtml\"><p><b>Generated Narrative: Observation</b><a name=\"example-opa-contraceptive-method-exit\"> </a></p><div style=\"display: inline-block; background-color: #d9e0e7; padding: 6px; margin: 4px; border: 1px solid #8da1b4; border-radius: 5px; line-height: 60%\"><p style=\"margin-bottom: 0px\">Resource Observation &quot;example-opa-contraceptive-method-exit&quot; </p><p style=\"margin-bottom: 0px\">Profile: <a href=\"StructureDefinition-contraceptive-method-exit.html\">Contraceptive Method - Exit</a></p></div><p><b>status</b>: final</p><p><b>category</b>: Survey <span style=\"background: LightGoldenRodYellow; margin: 4px; border: 1px solid khaki\"> (<a href=\"http://terminology.hl7.org/5.0.0/CodeSystem-observation-category.html\">Observation Category Codes</a>#survey)</span></p><p><b>code</b>: Birth control method at exit Reported <span style=\"background: LightGoldenRodYellow; margin: 4px; border: 1px solid khaki\"> (<a href=\"https://loinc.org/\">LOINC</a>#86651-7)</span></p><p><b>subject</b>: <a href=\"#Patient_example-opa-patient\">See above (Patient/example-opa-patient)</a></p><p><b>effective</b>: 2023-04-13 18:00:14-0500</p><p><b>performer</b>: <a href=\"#PractitionerRole_example-opa-practitioner-role\">See above (PractitionerRole/example-opa-practitioner-role)</a></p><p><b>value</b>: Uses intrauterine device contraception (finding) <span style=\"background: LightGoldenRodYellow; margin: 4px; border: 1px solid khaki\"> (<a href=\"https://browser.ihtsdotools.org/\">SNOMED CT</a>#312081001)</span></p></div>"
      },
      "status" : "final",
      "category" : [{
        "coding" : [{
          "system" : "http://terminology.hl7.org/CodeSystem/observation-category",
          "code" : "survey",
          "display" : "Survey"
        }]
      }],
      "code" : {
        "coding" : [{
          "system" : "http://loinc.org",
          "code" : "86651-7",
          "display" : "Birth control method at exit Reported"
        }]
      },
      "subject" : {
        "reference" : "Patient/example-opa-patient"
      },
      "effectiveDateTime" : "2023-04-13T18:00:14-05:00",
      "performer" : [{
        "reference" : "PractitionerRole/example-opa-practitioner-role"
      }],
      "valueCodeableConcept" : {
        "coding" : [{
          "system" : "http://snomed.info/sct",
          "code" : "312081001",
          "display" : "Uses intrauterine device contraception (finding)"
        }]
      }
    }
  },
  {
    "fullUrl" : "http://example.org/fhir/Observation/example-opa-contraceptive-counseling",
    "resource" : {
      "resourceType" : "Observation",
      "id" : "example-opa-contraceptive-counseling",
      "meta" : {
        "profile" : ["http://oash.org/fhir/us/opa/StructureDefinition/contraceptive-counseling"]
      },
      "text" : {
        "status" : "generated",
        "div" : "<div xmlns=\"http://www.w3.org/1999/xhtml\"><p><b>Generated Narrative: Observation</b><a name=\"example-opa-contraceptive-counseling\"> </a></p><div style=\"display: inline-block; background-color: #d9e0e7; padding: 6px; margin: 4px; border: 1px solid #8da1b4; border-radius: 5px; line-height: 60%\"><p style=\"margin-bottom: 0px\">Resource Observation &quot;example-opa-contraceptive-counseling&quot; </p><p style=\"margin-bottom: 0px\">Profile: <a href=\"StructureDefinition-contraceptive-counseling.html\">Contraceptive Counseling</a></p></div><p><b>status</b>: final</p><p><b>category</b>: Survey <span style=\"background: LightGoldenRodYellow; margin: 4px; border: 1px solid khaki\"> (<a href=\"http://terminology.hl7.org/5.0.0/CodeSystem-observation-category.html\">Observation Category Codes</a>#survey)</span></p><p><b>code</b>: How birth control method was provided <span style=\"background: LightGoldenRodYellow; margin: 4px; border: 1px solid khaki\"> (<a href=\"https://loinc.org/\">LOINC</a>#86652-5)</span></p><p><b>subject</b>: <a href=\"#Patient_example-opa-patient\">See above (Patient/example-opa-patient)</a></p><p><b>effective</b>: 2023-04-13 18:00:14-0500</p><p><b>performer</b>: <a href=\"#PractitionerRole_example-opa-practitioner-role\">See above (PractitionerRole/example-opa-practitioner-role)</a></p><p><b>value</b>: Patient encounter procedure (procedure) <span style=\"background: LightGoldenRodYellow; margin: 4px; border: 1px solid khaki\"> (<a href=\"https://browser.ihtsdotools.org/\">SNOMED CT</a>#308335008)</span></p></div>"
      },
      "status" : "final",
      "category" : [{
        "coding" : [{
          "system" : "http://terminology.hl7.org/CodeSystem/observation-category",
          "code" : "survey",
          "display" : "Survey"
        }]
      }],
      "code" : {
        "coding" : [{
          "system" : "http://loinc.org",
          "code" : "86652-5",
          "display" : "How birth control method was provided"
        }]
      },
      "subject" : {
        "reference" : "Patient/example-opa-patient"
      },
      "effectiveDateTime" : "2023-04-13T18:00:14-05:00",
      "performer" : [{
        "reference" : "PractitionerRole/example-opa-practitioner-role"
      }],
      "valueCodeableConcept" : {
        "coding" : [{
          "system" : "http://snomed.info/sct",
          "code" : "308335008",
          "display" : "Patient encounter procedure (procedure)"
        }]
      }
    }
  },
  {
    "fullUrl" : "http://example.org/fhir/Observation/example-opa-pregnancy-counseling",
    "resource" : {
      "resourceType" : "Observation",
      "id" : "example-opa-pregnancy-counseling",
      "meta" : {
        "profile" : ["http://oash.org/fhir/us/opa/StructureDefinition/pregnancy-counseling"]
      },
      "text" : {
        "status" : "generated",
        "div" : "<div xmlns=\"http://www.w3.org/1999/xhtml\"><p><b>Generated Narrative: Observation</b><a name=\"example-opa-pregnancy-counseling\"> </a></p><div style=\"display: inline-block; background-color: #d9e0e7; padding: 6px; margin: 4px; border: 1px solid #8da1b4; border-radius: 5px; line-height: 60%\"><p style=\"margin-bottom: 0px\">Resource Observation &quot;example-opa-pregnancy-counseling&quot; </p><p style=\"margin-bottom: 0px\">Profile: <a href=\"StructureDefinition-pregnancy-counseling.html\">Pregnancy Counseling</a></p></div><p><b>status</b>: final</p><p><b>code</b>: Counseling to achieve pregnancy was provided <span style=\"background: LightGoldenRodYellow; margin: 4px; border: 1px solid khaki\"> (<a href=\"https://loinc.org/\">LOINC</a>#86655-8)</span></p><p><b>subject</b>: <a href=\"#Patient_example-opa-patient\">See above (Patient/example-opa-patient)</a></p><p><b>effective</b>: 2023-04-13 18:00:14-0500</p><p><b>performer</b>: <a href=\"#PractitionerRole_example-opa-practitioner-role\">See above (PractitionerRole/example-opa-practitioner-role)</a></p><p><b>value</b>: true</p></div>"
      },
      "status" : "final",
      "code" : {
        "coding" : [{
          "system" : "http://loinc.org",
          "code" : "86655-8",
          "display" : "Counseling to achieve pregnancy was provided"
        }]
      },
      "subject" : {
        "reference" : "Patient/example-opa-patient"
      },
      "effectiveDateTime" : "2023-04-13T18:00:14-05:00",
      "performer" : [{
        "reference" : "PractitionerRole/example-opa-practitioner-role"
      }],
      "valueBoolean" : true
    }
  },
  {
    "fullUrl" : "http://example.org/fhir/Observation/example-opa-seeking-counseling",
    "resource" : {
      "resourceType" : "Observation",
      "id" : "example-opa-seeking-counseling",
      "meta" : {
        "profile" : ["http://oash.org/fhir/us/opa/StructureDefinition/seeking-counseling"]
      },
      "text" : {
        "status" : "generated",
        "div" : "<div xmlns=\"http://www.w3.org/1999/xhtml\"><p><b>Generated Narrative: Observation</b><a name=\"example-opa-seeking-counseling\"> </a></p><div style=\"display: inline-block; background-color: #d9e0e7; padding: 6px; margin: 4px; border: 1px solid #8da1b4; border-radius: 5px; line-height: 60%\"><p style=\"margin-bottom: 0px\">Resource Observation &quot;example-opa-seeking-counseling&quot; </p><p style=\"margin-bottom: 0px\">Profile: <a href=\"StructureDefinition-seeking-counseling.html\">Seeking Counseling</a></p></div><p><b>status</b>: final</p><p><b>code</b>: Do you want to talk about contraception or pregnancy prevention during your visit today <span style=\"background: LightGoldenRodYellow; margin: 4px; border: 1px solid khaki\"> (<a href=\"https://loinc.org/\">LOINC</a>#98076-3)</span></p><p><b>subject</b>: <a href=\"#Patient_example-opa-patient\">See above (Patient/example-opa-patient)</a></p><p><b>effective</b>: 2023-04-13 18:00:14-0500</p><p><b>performer</b>: <a href=\"#PractitionerRole_example-opa-practitioner-role\">See above (PractitionerRole/example-opa-practitioner-role)</a></p><p><b>value</b>: Yes <span style=\"background: LightGoldenRodYellow; margin: 4px; border: 1px solid khaki\"> (<a href=\"https://loinc.org/\">LOINC</a>#LA33-6)</span></p></div>"
      },
      "status" : "final",
      "code" : {
        "coding" : [{
          "system" : "http://loinc.org",
          "code" : "98076-3",
          "display" : "Do you want to talk about contraception or pregnancy prevention during your visit today"
        }]
      },
      "subject" : {
        "reference" : "Patient/example-opa-patient"
      },
      "effectiveDateTime" : "2023-04-13T18:00:14-05:00",
      "performer" : [{
        "reference" : "PractitionerRole/example-opa-practitioner-role"
      }],
      "valueCodeableConcept" : {
        "coding" : [{
          "system" : "http://loinc.org",
          "code" : "LA33-6",
          "display" : "Yes"
        }]
      }
    }
  },
  {
    "fullUrl" : "http://example.org/fhir/Observation/example-opa-pap-smear-result-prelim",
    "resource" : {
      "resourceType" : "Observation",
      "id" : "example-opa-pap-smear-result-prelim",
      "meta" : {
        "profile" : ["http://oash.org/fhir/us/opa/StructureDefinition/pap-smear-result"]
      },
      "text" : {
        "status" : "generated",
        "div" : "<div xmlns=\"http://www.w3.org/1999/xhtml\"><p><b>Generated Narrative: Observation</b><a name=\"example-opa-pap-smear-result-prelim\"> </a></p><div style=\"display: inline-block; background-color: #d9e0e7; padding: 6px; margin: 4px; border: 1px solid #8da1b4; border-radius: 5px; line-height: 60%\"><p style=\"margin-bottom: 0px\">Resource Observation &quot;example-opa-pap-smear-result-prelim&quot; </p><p style=\"margin-bottom: 0px\">Profile: <a href=\"StructureDefinition-pap-smear-result.html\">Pap Smear Result</a></p></div><p><b>status</b>: preliminary</p><p><b>category</b>: Laboratory <span style=\"background: LightGoldenRodYellow; margin: 4px; border: 1px solid khaki\"> (<a href=\"http://terminology.hl7.org/5.0.0/CodeSystem-observation-category.html\">Observation Category Codes</a>#laboratory)</span></p><p><b>code</b>: Microscopic observation [Identifier] in Cervical or vaginal smear or scraping by Cyto stain <span style=\"background: LightGoldenRodYellow; margin: 4px; border: 1px solid khaki\"> (<a href=\"https://loinc.org/\">LOINC</a>#19765-7)</span></p><p><b>subject</b>: <a href=\"#Patient_example-opa-patient\">See above (Patient/example-opa-patient)</a></p><p><b>effective</b>: 2023-04-13 18:00:14-0500</p><p><b>performer</b>: <a href=\"#PractitionerRole_example-opa-practitioner-role\">See above (PractitionerRole/example-opa-practitioner-role)</a></p><p><b>dataAbsentReason</b>: Unknown <span style=\"background: LightGoldenRodYellow; margin: 4px; border: 1px solid khaki\"> (<a href=\"http://terminology.hl7.org/5.0.0/CodeSystem-data-absent-reason.html\">DataAbsentReason</a>#unknown)</span></p></div>"
      },
      "status" : "preliminary",
      "category" : [{
        "coding" : [{
          "system" : "http://terminology.hl7.org/CodeSystem/observation-category",
          "code" : "laboratory",
          "display" : "Laboratory"
        }],
        "text" : "Laboratory"
      }],
      "code" : {
        "coding" : [{
          "system" : "http://loinc.org",
          "code" : "19765-7",
          "display" : "Microscopic observation [Identifier] in Cervical or vaginal smear or scraping by Cyto stain"
        }]
      },
      "subject" : {
        "reference" : "Patient/example-opa-patient"
      },
      "effectiveDateTime" : "2023-04-13T18:00:14-05:00",
      "performer" : [{
        "reference" : "PractitionerRole/example-opa-practitioner-role"
      }],
      "dataAbsentReason" : {
        "coding" : [{
          "system" : "http://terminology.hl7.org/CodeSystem/data-absent-reason",
          "code" : "unknown",
          "display" : "Unknown"
        }]
      }
    }
  },
  {
    "fullUrl" : "http://example.org/fhir/Observation/example-opa-hpv-result-final",
    "resource" : {
      "resourceType" : "Observation",
      "id" : "example-opa-hpv-result-final",
      "meta" : {
        "profile" : ["http://oash.org/fhir/us/opa/StructureDefinition/hpv-result"]
      },
      "text" : {
        "status" : "generated",
        "div" : "<div xmlns=\"http://www.w3.org/1999/xhtml\"><p><b>Generated Narrative: Observation</b><a name=\"example-opa-hpv-result-final\"> </a></p><div style=\"display: inline-block; background-color: #d9e0e7; padding: 6px; margin: 4px; border: 1px solid #8da1b4; border-radius: 5px; line-height: 60%\"><p style=\"margin-bottom: 0px\">Resource Observation &quot;example-opa-hpv-result-final&quot; </p><p style=\"margin-bottom: 0px\">Profile: <a href=\"StructureDefinition-hpv-result.html\">HPV Result</a></p></div><p><b>status</b>: final</p><p><b>category</b>: Laboratory <span style=\"background: LightGoldenRodYellow; margin: 4px; border: 1px solid khaki\"> (<a href=\"http://terminology.hl7.org/5.0.0/CodeSystem-observation-category.html\">Observation Category Codes</a>#laboratory)</span></p><p><b>code</b>: Human papilloma virus rRNA [Presence] in Specimen by NAA with probe detection <span style=\"background: LightGoldenRodYellow; margin: 4px; border: 1px solid khaki\"> (<a href=\"https://loinc.org/\">LOINC</a>#6516-9)</span></p><p><b>subject</b>: <a href=\"#Patient_example-opa-patient\">See above (Patient/example-opa-patient)</a></p><p><b>effective</b>: 2023-04-13 18:00:14-0500</p><p><b>performer</b>: <a href=\"#PractitionerRole_example-opa-practitioner-role\">See above (PractitionerRole/example-opa-practitioner-role)</a></p><p><b>value</b>: Not detected <span style=\"background: LightGoldenRodYellow; margin: 4px; border: 1px solid khaki\"> (<a href=\"https://browser.ihtsdotools.org/\">SNOMED CT</a>#260415000)</span></p></div>"
      },
      "status" : "final",
      "category" : [{
        "coding" : [{
          "system" : "http://terminology.hl7.org/CodeSystem/observation-category",
          "code" : "laboratory",
          "display" : "Laboratory"
        }],
        "text" : "Laboratory"
      }],
      "code" : {
        "coding" : [{
          "system" : "http://loinc.org",
          "code" : "6516-9",
          "display" : "Human papilloma virus rRNA [Presence] in Specimen by NAA with probe detection"
        }]
      },
      "subject" : {
        "reference" : "Patient/example-opa-patient"
      },
      "effectiveDateTime" : "2023-04-13T18:00:14-05:00",
      "performer" : [{
        "reference" : "PractitionerRole/example-opa-practitioner-role"
      }],
      "valueCodeableConcept" : {
        "coding" : [{
          "system" : "http://snomed.info/sct",
          "code" : "260415000",
          "display" : "Not detected"
        }]
      }
    }
  },
  {
    "fullUrl" : "http://example.org/fhir/Observation/example-opa-chlamydia-result-final",
    "resource" : {
      "resourceType" : "Observation",
      "id" : "example-opa-chlamydia-result-final",
      "meta" : {
        "profile" : ["http://oash.org/fhir/us/opa/StructureDefinition/chlamydia-result"]
      },
      "text" : {
        "status" : "generated",
        "div" : "<div xmlns=\"http://www.w3.org/1999/xhtml\"><p><b>Generated Narrative: Observation</b><a name=\"example-opa-chlamydia-result-final\"> </a></p><div style=\"display: inline-block; background-color: #d9e0e7; padding: 6px; margin: 4px; border: 1px solid #8da1b4; border-radius: 5px; line-height: 60%\"><p style=\"margin-bottom: 0px\">Resource Observation &quot;example-opa-chlamydia-result-final&quot; </p><p style=\"margin-bottom: 0px\">Profile: <a href=\"StructureDefinition-chlamydia-result.html\">Chlamydia Trachomatis Result</a></p></div><p><b>status</b>: final</p><p><b>category</b>: Laboratory <span style=\"background: LightGoldenRodYellow; margin: 4px; border: 1px solid khaki\"> (<a href=\"http://terminology.hl7.org/5.0.0/CodeSystem-observation-category.html\">Observation Category Codes</a>#laboratory)</span></p><p><b>code</b>: Chlamydia trachomatis rRNA [Presence] in Cervix by NAA with probe detection <span style=\"background: LightGoldenRodYellow; margin: 4px; border: 1px solid khaki\"> (<a href=\"https://loinc.org/\">LOINC</a>#50387-0)</span></p><p><b>subject</b>: <a href=\"#Patient_example-opa-patient\">See above (Patient/example-opa-patient)</a></p><p><b>effective</b>: 2023-04-13 18:00:14-0500</p><p><b>performer</b>: <a href=\"#PractitionerRole_example-opa-practitioner-role\">See above (PractitionerRole/example-opa-practitioner-role)</a></p><p><b>value</b>: Positive <span style=\"background: LightGoldenRodYellow; margin: 4px; border: 1px solid khaki\"> (<a href=\"https://browser.ihtsdotools.org/\">SNOMED CT</a>#10828004)</span></p></div>"
      },
      "status" : "final",
      "category" : [{
        "coding" : [{
          "system" : "http://terminology.hl7.org/CodeSystem/observation-category",
          "code" : "laboratory",
          "display" : "Laboratory"
        }],
        "text" : "Laboratory"
      }],
      "code" : {
        "coding" : [{
          "system" : "http://loinc.org",
          "code" : "50387-0",
          "display" : "Chlamydia trachomatis rRNA [Presence] in Cervix by NAA with probe detection"
        }]
      },
      "subject" : {
        "reference" : "Patient/example-opa-patient"
      },
      "effectiveDateTime" : "2023-04-13T18:00:14-05:00",
      "performer" : [{
        "reference" : "PractitionerRole/example-opa-practitioner-role"
      }],
      "valueCodeableConcept" : {
        "coding" : [{
          "system" : "http://snomed.info/sct",
          "code" : "10828004",
          "display" : "Positive"
        }]
      }
    }
  },
  {
    "fullUrl" : "http://example.org/fhir/Observation/example-opa-neisseria-gonorrhoeae-result-final",
    "resource" : {
      "resourceType" : "Observation",
      "id" : "example-opa-neisseria-gonorrhoeae-result-final",
      "meta" : {
        "profile" : ["http://oash.org/fhir/us/opa/StructureDefinition/neisseria-gonorrhoeae-result"]
      },
      "text" : {
        "status" : "generated",
        "div" : "<div xmlns=\"http://www.w3.org/1999/xhtml\"><p><b>Generated Narrative: Observation</b><a name=\"example-opa-neisseria-gonorrhoeae-result-final\"> </a></p><div style=\"display: inline-block; background-color: #d9e0e7; padding: 6px; margin: 4px; border: 1px solid #8da1b4; border-radius: 5px; line-height: 60%\"><p style=\"margin-bottom: 0px\">Resource Observation &quot;example-opa-neisseria-gonorrhoeae-result-final&quot; </p><p style=\"margin-bottom: 0px\">Profile: <a href=\"StructureDefinition-neisseria-gonorrhoeae-result.html\">Neisseria Gonorrhoeae Result</a></p></div><p><b>status</b>: final</p><p><b>category</b>: Laboratory <span style=\"background: LightGoldenRodYellow; margin: 4px; border: 1px solid khaki\"> (<a href=\"http://terminology.hl7.org/5.0.0/CodeSystem-observation-category.html\">Observation Category Codes</a>#laboratory)</span></p><p><b>code</b>: Neisseria gonorrhoeae DNA [Presence] in Cervical mucus by NAA with probe detection <span style=\"background: LightGoldenRodYellow; margin: 4px; border: 1px solid khaki\"> (<a href=\"https://loinc.org/\">LOINC</a>#21414-8)</span></p><p><b>subject</b>: <a href=\"#Patient_example-opa-patient\">See above (Patient/example-opa-patient)</a></p><p><b>effective</b>: 2023-04-13 18:00:14-0500</p><p><b>performer</b>: <a href=\"#PractitionerRole_example-opa-practitioner-role\">See above (PractitionerRole/example-opa-practitioner-role)</a></p><p><b>value</b>: Indeterminate <span style=\"background: LightGoldenRodYellow; margin: 4px; border: 1px solid khaki\"> (<a href=\"https://browser.ihtsdotools.org/\">SNOMED CT</a>#82334004)</span></p></div>"
      },
      "status" : "final",
      "category" : [{
        "coding" : [{
          "system" : "http://terminology.hl7.org/CodeSystem/observation-category",
          "code" : "laboratory",
          "display" : "Laboratory"
        }],
        "text" : "Laboratory"
      }],
      "code" : {
        "coding" : [{
          "system" : "http://loinc.org",
          "code" : "21414-8",
          "display" : "Neisseria gonorrhoeae DNA [Presence] in Cervical mucus by NAA with probe detection"
        }]
      },
      "subject" : {
        "reference" : "Patient/example-opa-patient"
      },
      "effectiveDateTime" : "2023-04-13T18:00:14-05:00",
      "performer" : [{
        "reference" : "PractitionerRole/example-opa-practitioner-role"
      }],
      "valueCodeableConcept" : {
        "coding" : [{
          "system" : "http://snomed.info/sct",
          "code" : "82334004",
          "display" : "Indeterminate"
        }]
      }
    }
  },
  {
    "fullUrl" : "http://example.org/fhir/Observation/example-opa-hiv-1-2-result-final",
    "resource" : {
      "resourceType" : "Observation",
      "id" : "example-opa-hiv-1-2-result-final",
      "meta" : {
        "profile" : ["http://oash.org/fhir/us/opa/StructureDefinition/hiv-1-2-result"]
      },
      "text" : {
        "status" : "generated",
        "div" : "<div xmlns=\"http://www.w3.org/1999/xhtml\"><p><b>Generated Narrative: Observation</b><a name=\"example-opa-hiv-1-2-result-final\"> </a></p><div style=\"display: inline-block; background-color: #d9e0e7; padding: 6px; margin: 4px; border: 1px solid #8da1b4; border-radius: 5px; line-height: 60%\"><p style=\"margin-bottom: 0px\">Resource Observation &quot;example-opa-hiv-1-2-result-final&quot; </p><p style=\"margin-bottom: 0px\">Profile: <a href=\"StructureDefinition-hiv-1-2-result.html\">HIV 1 and 2 Result</a></p></div><p><b>status</b>: final</p><p><b>category</b>: Laboratory <span style=\"background: LightGoldenRodYellow; margin: 4px; border: 1px solid khaki\"> (<a href=\"http://terminology.hl7.org/5.0.0/CodeSystem-observation-category.html\">Observation Category Codes</a>#laboratory)</span></p><p><b>code</b>: HIV 1+2 Ab [Presence] in Serum or Plasma by Immunoassay <span style=\"background: LightGoldenRodYellow; margin: 4px; border: 1px solid khaki\"> (<a href=\"https://loinc.org/\">LOINC</a>#31201-7)</span></p><p><b>subject</b>: <a href=\"#Patient_example-opa-patient\">See above (Patient/example-opa-patient)</a></p><p><b>effective</b>: 2023-04-13 18:00:14-0500</p><p><b>performer</b>: <a href=\"#PractitionerRole_example-opa-practitioner-role\">See above (PractitionerRole/example-opa-practitioner-role)</a></p><p><b>value</b>: Not detected <span style=\"background: LightGoldenRodYellow; margin: 4px; border: 1px solid khaki\"> (<a href=\"https://browser.ihtsdotools.org/\">SNOMED CT</a>#260415000)</span></p></div>"
      },
      "status" : "final",
      "category" : [{
        "coding" : [{
          "system" : "http://terminology.hl7.org/CodeSystem/observation-category",
          "code" : "laboratory",
          "display" : "Laboratory"
        }],
        "text" : "Laboratory"
      }],
      "code" : {
        "coding" : [{
          "system" : "http://loinc.org",
          "code" : "31201-7",
          "display" : "HIV 1+2 Ab [Presence] in Serum or Plasma by Immunoassay"
        }]
      },
      "subject" : {
        "reference" : "Patient/example-opa-patient"
      },
      "effectiveDateTime" : "2023-04-13T18:00:14-05:00",
      "performer" : [{
        "reference" : "PractitionerRole/example-opa-practitioner-role"
      }],
      "valueCodeableConcept" : {
        "coding" : [{
          "system" : "http://snomed.info/sct",
          "code" : "260415000",
          "display" : "Not detected"
        }]
      }
    }
  }]
}